<?xml version="1.0" encoding="utf-8" ?>
<Bundle xmlns="http://hl7.org/fhir">
	<id value="laboratory-report-release-example"/>
	<type value="message"/>
	<!--************************消息头****************************-->
	<entry>
		<resource>
			<MessageHeader xmlns="http://hl7.org/fhir">
				<!--1.1 消息ID（实例ID，重发不变）-->
				<id value="MessageHeader-0006"/>
				<!--消息事件 1..1-->
				<eventCoding>
					<!-- 0..1 事件类型 CodeSystem url  -->
					<system value="http://CodeSystem.hl7fhir.cn/activity-code"/>
					<!-- 0..1 事件类型代码-->
					<code value="C01006"/>
					<!-- 0..1 事件类型名称 -->
					<display value="发布实验室检验报告"/>
				</eventCoding>
				<!-- 1..1 消息源应用程序 -->
				<source>
					<!-- 0..1 系统名称（发送消息的系统） -->
					<name value="[string]"/>
					<!-- 0..1 软件名称（子系统名称） -->
					<software value="[string]"/>
					<!-- 0..1 运行的软件版本（当前版本） -->
					<version value="[string]"/>
					<!-- 1..1 ID地址(当前操作客户端IP地址) -->
					<endpoint value="[uri]"/>
				</source>
				<!--消息实际内容 0..*-->
				<focus>
					<!-- 0..1 Reference(AppointmentResponse) 关联工作流信息 -->
					<reference value="Task/LaboratoryReportRelease-example"/>
				</focus>
				<!-- 0..1 canonical(MessageDefinition) Link to the definition for this message -->
 				<definition  value="MessageDefinition/md-laboratory-report-release"/>
			</MessageHeader>
		</resource>
	</entry>

	<!--************************发布实验室检验报告******************************-->
	<entry>
		<resource>
      <Task xmlns="http://hl7.org/fhir">
        <id value="LaboratoryReportRelease-example"/>
        <!-- 0..1 canonical(ActivityDefinition) 关联ActivityDefinition -->
        <instantiatesCanonical value="http://ActivityDefinition.hl7fhir.cn/ad-laboratory-report-release"/>
        <!-- 1..1 状态 draft | requested | received | accepted | + -->
        <status value="requested"/>

        <!-- 1..1 目的 unknown | proposal | plan | order | original-order | reflex-order | filler-order | instance-order | option -->
        <intent value="proposal"/>

        <!-- 0..1 CodeableConcept 事件类型 -->
        <businessStatus>
          <coding>
            <!-- 0..1 事件类型 CodeSystem url  -->
            <system value="http://CodeSystem.hl7fhir.cn/activity-code"/>
            <!-- 0..1 事件类型代码-->
            <code value="C01006"/>
            <!-- 0..1 事件类型名称 -->
            <display value="发布实验室检验报告"/>
          </coding>
        </businessStatus>

        <!-- 0..1 CodeableConcept Task Type 任务类型-->
        <code>
          <coding>
            <!-- 0..1 任务类型 CodeSystem url  -->
            <system value="http://hl7.org/fhir/CodeSystem/task-code"/>
            <!-- 0..1 任务类型代码-->
            <code value="approve"/>
            <!-- 0..1 任务类型名称 -->
            <display value="Activate/approve the focal resource"/>
          </coding>
        </code>
        <!-- 0..1 任务描述 -->
        <description value="实验室检验标本后，根据申请单的要求，发布对应的报告信息"/>
        <!-- 0..1 Reference(Any) 关联该任务正在处理的资源 -->
        <focus>
          <reference value="DiagnosticReport/LaboratoryReport-example"/>
        </focus>
        <!-- ?? 0..1 任务创建日期 -->
        <authoredOn value="2019-02-10T13:00:00Z"/>
        <!-- ?? 0..1 最后更新日期 -->
        <lastModified value="2019-02-10T13:00:00Z"/>
        <!-- 0..1 任务创建者，关联医护人员 -->
        <requester>
          <reference value="Practitioner/Practitioner001-example"/>
        </requester>

        <!-- 0..* 任务备注 -->
        <note>
          <!-- 1..1 The annotation  - text content (as markdown) -->
          <text value="[markdown]"/>
        </note>
      </Task>		
		</resource>
	</entry>
  <!--************************实验室检验报告******************************-->
  <entry>
    <resource>
      <DiagnosticReport xmlns="http://hl7.org/fhir">

        <!--0..1 实验室报告ID-->
        <id value="LaboratoryReport-example"/>
        <meta>
          <profile value="http://StructureDefinition.hl7fhir.cn/laboratory-report"/>
        </meta>

        <!-- 0..* 实验室报告编号 -->
        <identifier>
          <!--0..1 实验室报告编号NamingSystem uri-->
          <system value="http://NamingSystem.hl7fhir.cn/laboratory-report-identity"/>
          <!-- 0..1 实验室报告编号 -->
          <value value="SYSBG0000QWERTY"/>
        </identifier>

        <!-- 0..* 申请单信息 -->
        <basedOn>
          <!-- 0..1  Reference(ServiceRequest）关联申请单信息 -->
          <reference value="ServiceRequest/LaboratoryRequest-example"/>
        </basedOn>

        <!-- 1..1  报告状态  -->
        <status >
          <extension url="http://StructureDefinition.hl7fhir.cn/resource-status">
            <valueCoding>
              <!-- 0..1 报告状态 CodeSystem url  地址(registered | partial | preliminary | final +  )-->
              <system value="http://hl7.org/fhir/diagnostic-report-status"/>
              <!-- 0..1 报告状态代码-->
              <code value="final"/>
              <!-- 0..1 报告状态说明 -->
              <display value=" final "/>
            </valueCoding>
          </extension>
        </status>

        <!-- 0..* 检验分类 -->
        <category>
          <coding>
            <!-- 0..1 检验分类 CodeSystem url  地址-->
            <system value="http://CodeSystem.hl7fhir.cn/laboratory-type"/>
            <!-- 0..1 检验分类代码-->
            <code value="01"/>
            <!-- 0..1 检验分类说明 -->
            <display value="生化检验"/>
          </coding>
        </category>

        <!-- 1..1 检验项目（包）代码 -->
        <code>
          <coding>
            <!-- 0..1 检验项目（包）代码 CodeSystem url  地址-->
            <system value="http://CodeSystem.hl7fhir.cn/procedure-code"/>
            <!-- 0..1 检验项目（包）代码-->
            <code value="A0001"/>
            <!-- 0..1 检验项目（包）说明 -->
            <display value="血常规"/>
          </coding>
        </code>

        <!-- 0..1 患者信息 -->
        <subject>
          <!-- 0..1  Reference(Patient）关联患者信息 -->
          <reference value="Patient/Patient001-example"/>
        </subject>
        <!-- 0..1 医疗事件 -->
        <encounter>
          <!-- 0..1  Reference(Encounter）关联医疗事件信息 -->
          <reference value="Encounter/EncounterHospitalized001-example"/>
        </encounter>

        <!-- 0..1 发布报告时间 -->
        <issued value="2019-02-10T13:00:00Z"/>

        <!-- 0..* 检验医师 -->
        <performer>
          <!-- 0..1  Reference(Practitioner）关联医护人员信息 -->
          <reference value="Practitioner/Practitioner001-example"/>
        </performer>

        <!-- 0..* 发布报告者 -->
        <resultsInterpreter>
          <!-- 0..1  Reference(Practitioner）关联医护人员信息 -->
          <reference value="Practitioner/Practitioner001-example"/>
        </resultsInterpreter>

        <!-- 0..* Reference(Specimen)标本信息 -->
        <specimen>
          <!-- 0..1  Reference(Specimen）关联标本信息 -->
          <reference value="Specimen/LaboratorySpecimen001-example"/>
        </specimen>

        <!-- 0..* 检验结果-->
        <result>
          <!-- 0..1  Reference(Observation）关联观测结果信息 -->
          <reference value="Observation/LaboratoryRoutineObservation001-example"/>
        </result>
        <result>
          <!-- 0..1  Reference(Observation）关联观测结果信息 -->
          <reference value="Observation/LaboratoryRoutineObservation002-example"/>
        </result>
        <result>
          <!-- 0..1  Reference(Observation）关联观测结果信息 -->
          <reference value="Observation/LaboratoryRoutineObservation003-example"/>
        </result>

        <!-- 0..1 检验结论文字描述 -->
        <conclusion value="患者血常规检查无异常。 "/>
      </DiagnosticReport>

    </resource>
  </entry>

  <!--************************红细胞数数据******************************-->
  <entry>
    <resource>
      <Observation xmlns="http://hl7.org/fhir">
        <!--0..1 检验结果ID-->
        <id value="LaboratoryRoutineObservation001-example"/>
        <meta>
          <profile value="http://StructureDefinition.hl7fhir.cn/laboratory-routine-observation"/>
        </meta>


        <!-- 1..1  观测结果状态  -->
        <status>
          <extension url="http://StructureDefinition.hl7fhir.cn/resource-status">
            <valueCoding>
              <!-- 0..1 观测结果状态 CodeSystem url  地址(registered | preliminary | final | amended + )-->
              <system value="http://hl7.org/fhir/observation-status"/>
              <!-- 0..1 观测结果状态代码-->
              <code value="final"/>
              <!-- 0..1 观测结果状态说明 -->
              <display value="final"/>
            </valueCoding>
          </extension>
        </status>


        <!-- 0..* 检验分类 -->
        <category>
          <coding>
            <!-- 0..1 检验分类 CodeSystem url  地址-->
            <system value="http://CodeSystem.hl7fhir.cn/laboratory-type"/>
            <!-- 0..1 检验分类代码-->
            <code value="01"/>
            <!-- 0..1 检验分类说明 -->
            <display value="生化检验"/>
          </coding>
        </category>

        <!-- 1..1 检验项目（包）代码 -->
        <code>
          <coding>
            <!-- 0..1 检验项目（包）代码 CodeSystem url  地址-->
            <system value="http://CodeSystem.hl7fhir.cn/procedure-code"/>
            <!-- 0..1 检验项目（包）代码-->
            <code value="A0001"/>
            <!-- 0..1 检验项目（包）说明 -->
            <display value="血常规"/>
          </coding>
        </code>

        <!-- 0..1 患者信息 -->
        <subject>
          <!-- 0..1  Reference(Patient）关联患者信息 -->
          <reference value="Patient/Patient001-example"/>
        </subject>


        <!-- 0..1 医疗事件 -->
        <encounter>
          <!-- 0..1  Reference(Encounter）关联医疗事件信息 -->
          <reference value="Encounter/Encounter001-example"/>
        </encounter>

        <!-- 0..* 检验明细 -->
        <component>
          <!-- 1..1 检验项目明细 -->
          <code>
            <coding>
              <!-- 0..1 项目明细 CodeSystem url  地址-->
              <system value="http://CodeSystem.hl7fhir.cn/laboratoryrequest-orderdetail"/>
              <!-- 0..1 项目明细代码-->
              <code value="A0001001"/>
              <!-- 0..1 项目明细说明 -->
              <display value="红细胞数"/>
            </coding>
          </code>
          <!-- 0..1 观测结果值 （数字类型检验结果）-->
          <valueQuantity>
            <!-- 0..1  观测结果值-->
            <value value="12.5"/>
            <!-- 0..1 单位 -->
            <unit value="mg/L"/>
          </valueQuantity>

          <!-- 0..* 测试结果解释（高\正常\低） -->
          <interpretation>
            <coding>
              <!-- 0..1 测试结果解释 CodeSystem url  地址-->
              <system value="http://CodeSystem.hl7fhir.cn/laboratory-observation-interpretation"/>
              <!-- 0..1 测试结果解释代码-->
              <code value="01"/>
              <!-- 0..1 测试结果解释说明 -->
              <display value="正常"/>
            </coding>
          </interpretation>

          <!-- 0..* 标准值范围 -->
          <referenceRange>
            <!--  0..1 低范围 -->
            <low>
              <!-- 0..1  低范围值-->
              <value value="8.5"/>
              <!-- 0..1 单位 -->
              <unit value="mg/L"/>
            </low>
            <!-- ?? 0..1 高范围 -->
            <high>
              <!-- 0..1  高范围值-->
              <value value="25"/>
              <!-- 0..1 单位 -->
              <unit value="mg/L"/>
            </high>

            <!-- 0..1 参考范围的意义（正常、绝经后、中期、幼儿） -->
            <type>
              <coding>
                <!-- 0..1 参考范围的意义 CodeSystem url  地址-->
                <system value="http://CodeSystem.hl7fhir.cn/laboratory-referencerange-meaning"/>
                <!-- 0..1 参考范围的意义代码-->
                <code value="normal"/>
                <!-- 0..1参考范围的意义说明 -->
                <display value="Normal Range"/>
              </coding>
            </type>
            <!-- 0..1 范围文字描述 -->
            <text value="该指标正常"/>
          </referenceRange>
        </component>
      </Observation>

    </resource>
  </entry>

  <!--************************白细胞数数据******************************-->
  <entry>
    <resource>
      <Observation xmlns="http://hl7.org/fhir">
        <!--0..1 检验结果ID-->
        <id value="LaboratoryRoutineObservation001-example"/>
        <meta>
          <profile value="http://StructureDefinition.hl7fhir.cn/laboratory-routine-observation"/>
        </meta>


        <!-- 1..1  观测结果状态  -->
        <status>
          <extension url="http://StructureDefinition.hl7fhir.cn/resource-status">
            <valueCoding>
              <!-- 0..1 观测结果状态 CodeSystem url  地址(registered | preliminary | final | amended + )-->
              <system value="http://hl7.org/fhir/observation-status"/>
              <!-- 0..1 观测结果状态代码-->
              <code value="final"/>
              <!-- 0..1 观测结果状态说明 -->
              <display value="final"/>
            </valueCoding>
          </extension>
        </status>


        <!-- 0..* 检验分类 -->
        <category>
          <coding>
            <!-- 0..1 检验分类 CodeSystem url  地址-->
            <system value="http://CodeSystem.hl7fhir.cn/laboratory-type"/>
            <!-- 0..1 检验分类代码-->
            <code value="01"/>
            <!-- 0..1 检验分类说明 -->
            <display value="生化检验"/>
          </coding>
        </category>

        <!-- 1..1 检验项目（包）代码 -->
        <code>
          <coding>
            <!-- 0..1 检验项目（包）代码 CodeSystem url  地址-->
            <system value="http://CodeSystem.hl7fhir.cn/procedure-code"/>
            <!-- 0..1 检验项目（包）代码-->
            <code value="A0001"/>
            <!-- 0..1 检验项目（包）说明 -->
            <display value="血常规"/>
          </coding>
        </code>

        <!-- 0..1 患者信息 -->
        <subject>
          <!-- 0..1  Reference(Patient）关联患者信息 -->
          <reference value="Patient/Patient001-example"/>
        </subject>


        <!-- 0..1 医疗事件 -->
        <encounter>
          <!-- 0..1  Reference(Encounter）关联医疗事件信息 -->
          <reference value="Encounter/Encounter001-example"/>
        </encounter>

        <!-- 0..* 检验明细 -->
        <component>
          <!-- 1..1 检验项目明细 -->
          <code>
            <coding>
              <!-- 0..1 项目明细 CodeSystem url  地址-->
              <system value="http://CodeSystem.hl7fhir.cn/laboratoryrequest-orderdetail"/>
              <!-- 0..1 项目明细代码-->
              <code value="A0001002"/>
              <!-- 0..1 项目明细说明 -->
              <display value="白细胞数"/>
            </coding>
          </code>
          <!-- 0..1 观测结果值 （数字类型检验结果）-->
          <valueQuantity>
            <!-- 0..1  观测结果值-->
            <value value="17.5"/>
            <!-- 0..1 单位 -->
            <unit value="mg/L"/>
          </valueQuantity>

          <!-- 0..* 测试结果解释（高\正常\低） -->
          <interpretation>
            <coding>
              <!-- 0..1 测试结果解释 CodeSystem url  地址-->
              <system value="http://CodeSystem.hl7fhir.cn/laboratory-observation-interpretation"/>
              <!-- 0..1 测试结果解释代码-->
              <code value="01"/>
              <!-- 0..1 测试结果解释说明 -->
              <display value="正常"/>
            </coding>
          </interpretation>

          <!-- 0..* 标准值范围 -->
          <referenceRange>
            <!--  0..1 低范围 -->
            <low>
              <!-- 0..1  低范围值-->
              <value value="12.5"/>
              <!-- 0..1 单位 -->
              <unit value="mg/L"/>
            </low>
            <!-- ?? 0..1 高范围 -->
            <high>
              <!-- 0..1  高范围值-->
              <value value="20"/>
              <!-- 0..1 单位 -->
              <unit value="mg/L"/>
            </high>

            <!-- 0..1 参考范围的意义（正常、绝经后、中期、幼儿） -->
            <type>
              <coding>
                <!-- 0..1 参考范围的意义 CodeSystem url  地址-->
                <system value="http://CodeSystem.hl7fhir.cn/laboratory-referencerange-meaning"/>
                <!-- 0..1 参考范围的意义代码-->
                <code value="normal"/>
                <!-- 0..1参考范围的意义说明 -->
                <display value="Normal Range"/>
              </coding>
            </type>
            <!-- 0..1 范围文字描述 -->
            <text value="该指标正常"/>
          </referenceRange>
        </component>
      </Observation>

    </resource>
  </entry>

  <!--************************血小版数数据******************************-->
  <entry>
    <resource>
      <Observation xmlns="http://hl7.org/fhir">
        <!--0..1 检验结果ID-->
        <id value="LaboratoryRoutineObservation001-example"/>
        <meta>
          <profile value="http://StructureDefinition.hl7fhir.cn/laboratory-routine-observation"/>
        </meta>


        <!-- 1..1  观测结果状态  -->
        <status>
          <extension url="http://StructureDefinition.hl7fhir.cn/resource-status">
            <valueCoding>
              <!-- 0..1 观测结果状态 CodeSystem url  地址(registered | preliminary | final | amended + )-->
              <system value="http://hl7.org/fhir/observation-status"/>
              <!-- 0..1 观测结果状态代码-->
              <code value="final"/>
              <!-- 0..1 观测结果状态说明 -->
              <display value="final"/>
            </valueCoding>
          </extension>
        </status>


        <!-- 0..* 检验分类 -->
        <category>
          <coding>
            <!-- 0..1 检验分类 CodeSystem url  地址-->
            <system value="http://CodeSystem.hl7fhir.cn/laboratory-type"/>
            <!-- 0..1 检验分类代码-->
            <code value="01"/>
            <!-- 0..1 检验分类说明 -->
            <display value="生化检验"/>
          </coding>
        </category>

        <!-- 1..1 检验项目（包）代码 -->
        <code>
          <coding>
            <!-- 0..1 检验项目（包）代码 CodeSystem url  地址-->
            <system value="http://CodeSystem.hl7fhir.cn/procedure-code"/>
            <!-- 0..1 检验项目（包）代码-->
            <code value="A0001"/>
            <!-- 0..1 检验项目（包）说明 -->
            <display value="血常规"/>
          </coding>
        </code>

        <!-- 0..1 患者信息 -->
        <subject>
          <!-- 0..1  Reference(Patient）关联患者信息 -->
          <reference value="Patient/Patient001-example"/>
        </subject>


        <!-- 0..1 医疗事件 -->
        <encounter>
          <!-- 0..1  Reference(Encounter）关联医疗事件信息 -->
          <reference value="Encounter/Encounter001-example"/>
        </encounter>

        <!-- 0..* 检验明细 -->
        <component>
          <!-- 1..1 检验项目明细 -->
          <code>
            <coding>
              <!-- 0..1 项目明细 CodeSystem url  地址-->
              <system value="http://CodeSystem.hl7fhir.cn/laboratoryrequest-orderdetail"/>
              <!-- 0..1 项目明细代码-->
              <code value="A0001001"/>
              <!-- 0..1 项目明细说明 -->
              <display value="血小版数"/>
            </coding>
          </code>
          <!-- 0..1 观测结果值 （数字类型检验结果）-->
          <valueQuantity>
            <!-- 0..1  观测结果值-->
            <value value="1.5"/>
            <!-- 0..1 单位 -->
            <unit value="mg/L"/>
          </valueQuantity>

          <!-- 0..* 测试结果解释（高\正常\低） -->
          <interpretation>
            <coding>
              <!-- 0..1 测试结果解释 CodeSystem url  地址-->
              <system value="http://CodeSystem.hl7fhir.cn/laboratory-observation-interpretation"/>
              <!-- 0..1 测试结果解释代码-->
              <code value="01"/>
              <!-- 0..1 测试结果解释说明 -->
              <display value="正常"/>
            </coding>
          </interpretation>

          <!-- 0..* 标准值范围 -->
          <referenceRange>
            <!--  0..1 低范围 -->
            <low>
              <!-- 0..1  低范围值-->
              <value value="0.5"/>
              <!-- 0..1 单位 -->
              <unit value="mg/L"/>
            </low>
            <!-- ?? 0..1 高范围 -->
            <high>
              <!-- 0..1  高范围值-->
              <value value="2.8"/>
              <!-- 0..1 单位 -->
              <unit value="mg/L"/>
            </high>

            <!-- 0..1 参考范围的意义（正常、绝经后、中期、幼儿） -->
            <type>
              <coding>
                <!-- 0..1 参考范围的意义 CodeSystem url  地址-->
                <system value="http://CodeSystem.hl7fhir.cn/laboratory-referencerange-meaning"/>
                <!-- 0..1 参考范围的意义代码-->
                <code value="normal"/>
                <!-- 0..1参考范围的意义说明 -->
                <display value="Normal Range"/>
              </coding>
            </type>
            <!-- 0..1 范围文字描述 -->
            <text value="该指标正常"/>
          </referenceRange>
        </component>
      </Observation>

    </resource>
  </entry>

  <!--************************医疗事件信息******************************-->
  <entry>
    <resource>
      <Encounter xmlns="http://hl7.org/fhir">
        <!--0.1 住院ID-->
        <id value="EncounterHospitalized001-example"/>

        <meta>
          <profile value="http://StructureDefinition.hl7fhir.cn/encounter-hospitalized"/>
        </meta>
        <!--0..* 住院号 -->
        <identifier>
          <!-- 0..1 住院号NamingSystem uri-->
          <system value="http://NamingSystem.hl7fhir.cn/hospitalized-identifier"/>
          <!-- 0..1 住院号 -->
          <value value="20192737378181"/>
        </identifier>

        <!-- 1..1 住院状态   +-->
        <status>
          <extension url="http://StructureDefinition.hl7fhir.cn/resource-status">
            <valueCoding>
              <!-- 0..1 住院状态 CodeSystem url -->
              <system value="http://hl7.org/fhir/encounter-status"/>
              <!-- 0..1 住院状态代码-->
              <code value="arrived"/>
              <!-- 0..1 住院状态说明 -->
              <display value="arrived"/>
            </valueCoding>
          </extension>
        </status>

        <!-- 1..1 医疗活动类别（固定为住院） -->
        <class>
          <!--0..1 医疗活动类别  -->
          <coding>
            <!--0..1  医疗活动类别 CodeSsystem地址-->
            <system value="http://CodeSsystem.hl7fhir.cn/encounter-code"/>
            <!--0..1  医疗活动类别-->
            <code value="02"/>
            <!--0..1 医疗活动类别说明-->
            <display value="住院"/>
          </coding>
        </class>

        <!-- 0..1 患者  -->
        <subject>
          <!-- 0..1  Reference(Patient）关联患者信息 -->
          <reference value="Patient/Patient001-example"/>
        </subject>



        <!-- 0..* 提供服务的人员 -->
        <participant>
          <!-- 0..* 参与人类型 -->
          <type>
            <!--0..1 参与人类型  -->
            <coding>
              <!--0..1  参与人类型代码 CodeSsystem地址-->
              <system value="http://CodeSsystem.hl7fhir.cn/encounter-participant-type"/>
              <!--0..1  参与人类型代码-->
              <code value="01"/>
              <!--0..1 参与人类型代码说明-->
              <display value="主管医生"/>
            </coding>
          </type>
          <!-- 0..1 医生 -->
          <individual>
            <!-- 0..1  Reference(Practitioner）关联医护人员信息-->
            <reference value="Practitioner/Practitioner001-example"/>
          </individual>
        </participant>


        <!-- 0..1 在该医疗活动的治疗的时间周期 -->
        <period>
          <!--  0..1 入院日期 -->
          <start value="2019-02-20T13:00:00Z"/>
        </period>

        <!-- 0..* 病床信息（转诊患者根据情况，未安床该节点可不填写） -->
        <location>
          <!-- 1..1 Reference(Location) 预安排的床位 -->
          <location>
            <!-- 0..1  Reference(Location）关联位置信息（病床） -->
            <reference value="Location/HospitalBed001-example"/>
          </location>
          <!-- 0..1 床位状态固定为planned，表示计划安排  planned | active | reserved | completed -->
          <status value="planned"/>
        </location>


        <!-- 0..1  入院科室信息 -->
        <serviceProvider>
          <!-- 0..1  Reference(Organization）关联组织机构信息（科室） -->
          <reference value="Organization/Department001-example"/>
        </serviceProvider>
      </Encounter>
    </resource>
  </entry>

  <!--************************标本信息******************************-->
  <entry>
    <resource>
      <Specimen xmlns="http://hl7.org/fhir">

        <id value="LaboratorySpecimen001-example"/>
        <meta>
          <profile value="http://StructureDefinition.hl7fhir.cn/laboratory-specimen"/>
        </meta>
        <!--0..1 标本号-->
        <identifier>
          <!--0..1 标本号 NamingSystem uri-->
          <system value="http://NamingSystem.hl7fhir.cn/laboratory-specimen-identifier"/>
          <!-- 0..1 标本号 -->
          <value value="SYS000000ABC1234"/>
        </identifier>

        <!-- 0..1 标本状态  available | unavailable | unsatisfactory | entered-in-error -->
        <status>
          <extension url="http://StructureDefinition.hl7fhir.cn/resource-status">
            <valueCoding>
              <!-- 0..1 标本状态 CodeSystem url  地址(	available | unavailable | unsatisfactory | entered-in-error )-->
              <system value="http://CodeSystem.hl7fhir.cn/specimen-status"/>
              <!-- 0..1 标本状态代码-->
              <code value="available"/>
              <!-- 0..1 标本状态说明 -->
              <display value="available"/>
            </valueCoding>
          </extension>
        </status>



        <!-- 0..1 标本类别 -->
        <type>
          <coding>
            <!-- 0..1 标本类别 CodeSystem url  地址-->
            <system value="http://CodeSystem.hl7fhir.cn/specimen-type"/>
            <!-- 0..1 标本类别代码-->
            <code value="BLD"/>
            <!-- 0..1 标本类别说明 -->
            <display value="Whole blood"/>
          </coding>
        </type>


        <!-- 0..1  患者信息 -->
        <subject>
          <!-- 0..1  Reference(Patient）关联患者 -->
          <reference value="Patient/Patient001-example"/>
        </subject>
        <!-- 0..1 签收标本时间 -->
        <receivedTime value="2019-02-10T13:00:00Z"/>
        <!-- 0..* Reference(ServiceRequest) 检验申请 -->
        <request>
          <!-- 0..1  Reference(ServiceRequest）关联检验申请 -->
          <reference value="ServiceRequest/LaboratoryRequest-example"/>
        </request>
        <!-- 0..1 采集信息 -->
        <collection>
          <collector>
            <!-- 0..1  Reference(Practitioner）关联医护人员 -->
            <reference value="Practitioner/Practitioner001-example"/>
          </collector>
          <!-- 0..1 采集日期 -->
          <collectedDateTime value="2019-02-10T13:00:00Z"/>
          <!-- 0..1 Quantity(SimpleQuantity) 采集量 -->
          <quantity>
            <!-- 0..1  采集量-->
            <value value="5"/>
            <!-- 0..1 单位 -->
            <unit value="mg"/>
          </quantity>
        </collection>
      </Specimen>
    </resource>
  </entry>

  <!--************************床位信息******************************-->
  <entry>
    <resource>
      <Location xmlns="http://hl7.org/fhir">
        <!--0..1 病床ID-->
        <id value="HospitalBed001-example"/>
        <meta>
          <profile value="http://StructureDefinition.hl7fhir.cn/hospital-bed"/>
        </meta>

        <!--0..* 病床号 -->
        <identifier>
          <!-- 0..1 病床号NamingSystem uri-->
          <system value="http://NamingSystem.hl7fhir.cn/hospital-bed-identifier"/>
          <!-- 0..1 病床号 -->
          <value value="X00001"/>
        </identifier>

        <!-- 0..1 病床名称 -->
        <name value="骨1床"/>
        <!-- 0..* 病床名称 -->
        <alias value="骨科1病床"/>
        <!-- 0..1 关于床位的其他详细信息，可以作为进一步的信息显示 -->
        <description value="该病床为骨科1号病床"/>

        <!-- 0..1 位置功能类型 -->
        <type>
          <!--0..1 位置功能类别  （固定为病床）-->
          <coding>
            <!--0..1  位置功能类别 CodeSsystem地址-->
            <system value="http://terminology.hl7.org/CodeSystem/v3-RoleCode"/>
            <!--0..1  位置功能类别-->
            <code value="CHR"/>
            <!--0..1 位置功能类别说明-->
            <display value="Chronic Care Facility"/>
          </coding>
        </type>

        <!-- 0..1 病床物理形式 -->
        <physicalType>
          <coding>
            <!--病床物理形式 CodeSystem地址-->
            <system value="http://terminology.hl7.org/CodeSystem/location-physical-type"/>
            <!-- 0..1 病床物理形式代码-->
            <code value="bd"/>
            <!-- 0..1 病床物理形式 -->
            <display value="床"/>
          </coding>
        </physicalType>

        <!-- 0..1 Reference(Organization) 科室信息 -->
        <managingOrganization>
          <!-- 0..1  Reference(Organization）关联组织机构信息（科室） -->
          <reference value="Organization/Department001-example"/>
        </managingOrganization>
      </Location>
    </resource>
  </entry>

  <!--************************科室信息******************************-->
  <entry>
    <resource>
      <Organization xmlns="http://hl7.org/fhir">
        <id value="Department001-example"/>
        <meta>
          <profile value="http://StructureDefinition.hl7fhir.cn/Department"/>
        </meta>
        <!--0..1 科室编号-->
        <identifier>
          <!--0..1 科室编号 NamingSystem uri-->
          <system value="http://NamingSystem.hl7fhir.cn/department-identifier"/>
          <!-- 0..1 科室编号 -->
          <value value="ABC0000001"/>
        </identifier>
        <!-- 0..1 是否可用 -->
        <active value="true"/>

        <!-- 0..1 组织机构层级种类（固定为科室） -->
        <type>
          <coding>
            <!--组织机构层级种类 CodeSystem地址-->
            <system value="http://CodeSystem.hl7fhir.cn/hierarchy-kind"/>
            <!-- 0..1 组织机构层级种类代码-->
            <code value="A100"/>
            <!-- 0..1 组织机构层级种类 -->
            <display value="科室"/>
          </coding>
        </type>


        <!--  0..1 科室名称 -->
        <name value="普通外科"/>
        <!-- 0..* 病区别名 -->
        <alias value="外1科"/>
        <!--  0..1 联系电话 -->
        <telecom>
          <!--  0..1 类型 phone | fax | email | pager | url | sms | other -->
          <system value="phone"/>
          <!-- 0..1 电话号码 -->
          <value value="13309876352"/>
        </telecom>
        <!--  0..1 电子邮箱 -->
        <telecom>
          <!--  0..1 类型 phone | fax | email | pager | url | sms | other -->
          <system value="email"/>
          <!-- 0..1 电子邮箱 -->
          <value value="cdyyy@qq.com"/>
        </telecom>

        <!-- 0..1 Reference(Organization)  -->
        <partOf>
          <!-- 0..1  Reference(Organization）关联组织机构信息（病区） -->
          <reference value="Organization/EndemicArea001-example"/>
        </partOf>


        <!--0..1 图片 -->
        <extension url="http://StructureDefinition.hl7fhir.cn/organization-picture">
          <!--0..1 logo图片 -->
          <extension url="logo">
            <ValueAttachment>
              <!-- 0..1 图片url -->
              <url value="http://upload.cdzxy.com/2020/0703/thumb_309_232_20200703094539230.jpg"/>
              <!-- 0..1 图片标题 -->
              <title value="科室logo"/>
            </ValueAttachment>
          </extension>
          <!--0..* 其他图片 -->
          <extension url="images">
            <ValueAttachment>
              <!-- 0..1 图片url -->
              <url value="http://upload.cdzxy.com/2020/0703/thumb_309_232_20200703094739309.jpg"/>
              <!-- 0..1 图片标题 -->
              <title value="科室实景图1"/>
            </ValueAttachment>
          </extension>
          <extension url="images">
            <ValueAttachment>
              <!-- 0..1 图片url -->
              <url value="http://upload.cdzxy.com/2017/0724/20170724063817937.jpg"/>
              <!-- 0..1 图片标题 -->
              <title value="科室实景图2"/>
            </ValueAttachment>
          </extension>
        </extension>

        <!--科室简介 -->
        <extension url="http://StructureDefinition.hl7fhir.cn/BriefIntroduction">
          <!--科室简介 -->
          <valueString value="XXXXXXXX科室针对【血小板减少】、【血小板增多】、【过敏性紫癜】、【贫血】等病提供专业治疗方案。"/>
        </extension>
      </Organization>
    </resource>
  </entry>

  <!--************************病区信息******************************-->
  <entry>
    <resource>
      <Organization xmlns="http://hl7.org/fhir">
        <id value="EndemicArea001-example"/>
        <meta>
          <profile value="http://StructureDefinition.hl7fhir.cn/EndemicArea"/>
        </meta>
        <!--0..1 病区编号-->
        <identifier>
          <!--0..1 病区编号 NamingSystem uri-->
          <system value="http://NamingSystem.hl7fhir.cn/endemic-area-identifier"/>
          <!-- 0..1 病区编号 -->
          <value value="ABC0000001"/>
        </identifier>
        <!-- 0..1 是否可用 -->
        <active value="true"/>

        <!-- 0..1 组织机构层级种类（固定为病区） -->
        <type>
          <coding>
            <!--组织机构层级种类 CodeSystem地址-->
            <system value="http://CodeSystem.hl7fhir.cn/hierarchy-kind"/>
            <!-- 0..1 组织机构层级种类代码-->
            <code value="A100"/>
            <!-- 0..1 组织机构层级种类 -->
            <display value="病区"/>
          </coding>
        </type>


        <!--  0..1 病区名称 -->
        <name value="外壳病区"/>
        <!-- 0..* 病区别名 -->
        <alias value="第三病区"/>
        <!--  0..1 联系电话 -->
        <telecom>
          <!--  0..1 类型 phone | fax | email | pager | url | sms | other -->
          <system value="phone"/>
          <!-- 0..1 电话号码 -->
          <value value="13309876352"/>
        </telecom>
        <!--  0..1 电子邮箱 -->
        <telecom>
          <!--  0..1 类型 phone | fax | email | pager | url | sms | other -->
          <system value="email"/>
          <!-- 0..1 电子邮箱 -->
          <value value="cdyyy@qq.com"/>
        </telecom>

        <!-- 0..1 Reference(Organization)  -->
        <partOf>
          <!-- 0..1  Reference(Organization）关联组织机构信息（医院） -->
          <reference value="Organization/Hospital001-example"/>
        </partOf>


        <!--0..1 图片 -->
        <extension url="http://StructureDefinition.hl7fhir.cn/organization-picture">
          <!--0..1 logo图片 -->
          <extension url="logo">
            <ValueAttachment>
              <!-- 0..1 图片url -->
              <url value="http://upload.cdzxy.com/2020/0703/thumb_309_232_20200703094539230.jpg"/>
              <!-- 0..1 图片标题 -->
              <title value="病区logo"/>
            </ValueAttachment>
          </extension>
          <!--0..* 其他图片 -->
          <extension url="images">
            <ValueAttachment>
              <!-- 0..1 图片url -->
              <url value="http://upload.cdzxy.com/2020/0703/thumb_309_232_20200703094739309.jpg"/>
              <!-- 0..1 图片标题 -->
              <title value="病区实景图1"/>
            </ValueAttachment>
          </extension>
          <extension url="images">
            <ValueAttachment>
              <!-- 0..1 图片url -->
              <url value="http://upload.cdzxy.com/2017/0724/20170724063817937.jpg"/>
              <!-- 0..1 图片标题 -->
              <title value="病区实景图2"/>
            </ValueAttachment>
          </extension>
        </extension>

        <!--病区简介 -->
        <extension url="http://StructureDefinition.hl7fhir.cn/BriefIntroduction">
          <!--病区简介 -->
          <valueString value="XXXXXXXX病区针对【血小板减少】、【血小板增多】、【过敏性紫癜】、【贫血】等病提供专业治疗方案。"/>
        </extension>
      </Organization>
    </resource>
  </entry>

  <!--************************医院信息******************************-->
  <entry>
    <resource>
      <Organization xmlns="http://hl7.org/fhir">
        <id value="Hospital001-example"/>
        <meta>
          <profile value="http://StructureDefinition.hl7fhir.cn/Hospital"/>
        </meta>
        <!--0..1 医院编号-->
        <identifier>
          <!--0..1 医院编号 NamingSystem uri-->
          <system value="https://www.cods.org.cn"/>
          <!-- 0..1 医院编号 -->
          <value value="ABC0000001"/>
        </identifier>
        <!-- 0..1 是否可用 -->
        <active value="true"/>

        <!-- 0..1 组织机构层级种类（固定为医院） -->
        <type>
          <coding>
            <!--组织机构层级种类 CodeSystem地址-->
            <system value="http://CodeSystem.hl7fhir.cn/hierarchy-kind"/>
            <!-- 0..1 组织机构层级种类代码-->
            <code value="A100"/>
            <!-- 0..1 组织机构层级种类 -->
            <display value="综合医院"/>
          </coding>
        </type>
        <!-- 0..1 卫生机构(组织)类别 WS 218-2002， -->
        <type>
          <coding>
            <!--卫生机构(组织)类别 CodeSystem地址-->
            <system value="http://CodeSystem.hl7fhir.cn/health-institution-category"/>
            <!-- 0..1 卫生机构(组织)类别代码-->
            <code value="2"/>
            <!-- 0..1 卫生机构(组织)类别 -->
            <display value="医院"/>
          </coding>
        </type>
        <!-- 0..1 组织机构类型 GB/T 20091-2006-->
        <type>
          <coding>
            <!--组织机构类型 CodeSystem地址-->
            <system value="http://CodeSystem.hl7fhir.cn/Classification-for-organizations"/>
            <!-- 0..1 组织机构类型代码-->
            <code value="5"/>
            <!-- 0..1 组织机构类型 -->
            <display value="事业单位"/>
          </coding>
        </type>
        <!--0..1 地址-->
        <address>
          <!-- 0..1 地址的完整描述 -->
          <text value="四川省成都市高新区XXXXXX路18号"/>
        </address>
        <!--  0..1 医院名称 -->
        <name value="成都市XXXXX人民医院"/>
        <!-- 0..* 医院别名 -->
        <alias value="成都XX医院"/>
        <!--  0..1 联系电话 -->
        <telecom>
          <!--  0..1 类型 phone | fax | email | pager | url | sms | other -->
          <system value="phone"/>
          <!-- 0..1 电话号码 -->
          <value value="13309876352"/>
        </telecom>
        <!--  0..1 电子邮箱 -->
        <telecom>
          <!--  0..1 类型 phone | fax | email | pager | url | sms | other -->
          <system value="email"/>
          <!-- 0..1 电子邮箱 -->
          <value value="cdyyy@qq.com"/>
        </telecom>
        <!--  0..1 官方网页 -->
        <telecom>
          <!--  0..1 类型 phone | fax | email | pager | url | sms | other -->
          <system value="url"/>
          <!-- 0..1 官方网页 -->
          <value value="http://www.cdzxy.com/"/>
        </telecom>
        <!--0..1 图片 -->
        <extension url="http://StructureDefinition.hl7fhir.cn/organization-picture">
          <!--0..1 logo图片 -->
          <extension url="logo">
            <ValueAttachment>
              <!-- 0..1 图片url -->
              <url value="http://upload.cdzxy.com/2020/0703/thumb_309_232_20200703094539230.jpg"/>
              <!-- 0..1 图片标题 -->
              <title value="医院logo"/>
            </ValueAttachment>
          </extension>
          <!--0..* 其他图片 -->
          <extension url="images">
            <ValueAttachment>
              <!-- 0..1 图片url -->
              <url value="http://upload.cdzxy.com/2020/0703/thumb_309_232_20200703094739309.jpg"/>
              <!-- 0..1 图片标题 -->
              <title value="医院实景图1"/>
            </ValueAttachment>
          </extension>
          <extension url="images">
            <ValueAttachment>
              <!-- 0..1 图片url -->
              <url value="http://upload.cdzxy.com/2017/0724/20170724063817937.jpg"/>
              <!-- 0..1 图片标题 -->
              <title value="医院实景图2"/>
            </ValueAttachment>
          </extension>
        </extension>

        <!--医院简介 -->
        <extension url="http://StructureDefinition.hl7fhir.cn/BriefIntroduction">
          <!--医院简介 -->
          <valueString value="XXXXXXXX医院血液科针对【血小板减少】、【血小板增多】、【过敏性紫癜】、【贫血】等病提供专业治疗方案。"/>
        </extension>
      </Organization>
    </resource>
  </entry>

  <!--************************医护人员信息******************************-->
  <entry>
    <resource>
      <Practitioner xmlns="http://hl7.org/fhir">
        <id value="Practitioner001-example"/>
        <meta>
          <profile value="http://StructureDefinition.hl7fhir.cn/Practitioner"/>
        </meta>
        <!--1..* 身份证件号 -->
        <identifier>
          <!--证件类型-->
          <type>
            <coding>
              <!-- 证件类型CodeSystem  地址 -->
              <system value="http://CodeSystem.hl7fhir.cn/identity-document-type"/>
              <!-- 0..1 证件类别编码 -->
              <code value="01"/>
              <!-- 0..1 证件类别名称 -->
              <display value="身份证"/>
            </coding>
          </type>
          <!--0..1 身份证件号码NamingSystem uri-->
          <system value="http://NamingSystem.hl7fhir.cn/identityDocument"/>
          <!-- 0..1 身份证件号码 -->
          <value value="511002198609021982"/>
        </identifier>
        <active value="true"/>
        <!-- 0..* 姓名 -->
        <name>
          <!-- 0..1 全名 -->
          <text value="李明明"/>
        </name>
        <telecom>
          <!--  0..1 类型 phone | fax | email | pager | url | sms | other -->
          <system value="phone"/>
          <!-- 0..1 电话号码 -->
          <value value="13309092736"/>
        </telecom>
        <!--  0..1 电子邮箱 -->
        <telecom>
          <!--  0..1 类型 phone | fax | email | pager | url | sms | other -->
          <system value="email"/>
          <!-- 0..1 电子邮箱 -->
          <value value="263736484@qq.com"/>
        </telecom>
        <!-- 0..* 地址-->
        <address>
          <!-- 0..1 地址的完整描述 -->
          <text value="成都市XXX区XXX小区XXXX号"/>
        </address>
        <!-- 0..1 生理性别 -->
        <gender>
          <extension url="http://StructureDefinition.hl7fhir.cn/sexual-distinction-of-human">
            <valueCoding>
              <!-- 0..1 生理性别 CodeSystem url  地址-->
              <system value="http://CodeSystem.hl7fhir.cn/physiological-gender"/>
              <!-- 0..1 生理性别代码-->
              <code value="01"/>
              <!-- 0..1 生理性别说明 -->
              <display value="男"/>
            </valueCoding>
          </extension>
        </gender>
        <!-- 0..1 出生日期 -->
        <birthDate value="1980-01-01"/>
        <!-- 0..* 照片 -->
        <photo>
          <!-- 0..1 uri地址 -->
          <url value="http://www.cctrry.com/images/image1.png"/>
          <!-- 0..1 标题 -->
          <title value="头像"/>
        </photo>
        <photo>
          <!-- 0..1 uri地址 -->
          <url value="http://www.cctrry.com/images/image2.png"/>
          <!-- 0..1 标题 -->
          <title value="寸照"/>
        </photo>
        <extension url="http://StructureDefinition.hl7fhir.cn/BriefIntroduction">
          <valueString value="擅长运用中医、中西医结合治疗血小板减少、血小板增多等血液疾病独树一帜，她在多年临床发现治疗血液病单纯靠西药激素治疗并不理想，立志另辟蹊径潜心进修中医，对多种疑难病症有着丰富的临床诊疗经验。"/>
        </extension>
        <!-- 0..1 国籍   GB/T 2659 世界各国和地区名称代码-->
        <extension url="http://StructureDefinition.hl7fhir.cn/Nationality">
          <valueCoding>
            <!-- 0..1 世界各国和地区名称代码 CodeSystem url  地址  -->
            <system value="http://CodeSystem.hl7fhir.cn/countries-and-regions"/>
            <!-- 0..1 世界各国和地区名称代码-->
            <code value="64"/>
            <!-- 0..1 世界各国和地区名称代码说明 -->
            <display value="中华人民共和国"/>
          </valueCoding>
        </extension>
        <!-- 0..1 民族  中华56个民族代码， GB 3304-->
        <extension url="http://StructureDefinition.hl7fhir.cn/ChineseEthnicity">
          <valueCoding>
            <!-- 0..1 民族类别 CodeSystem url  地址-->
            <system value="http://CodeSystem.hl7fhir.cn/nationalites-of-PRC"/>
            <!-- 0..1 民族类别代码-->
            <code value="01"/>
            <!-- 0..1 民族类别说明 -->
            <display value="汉族"/>
          </valueCoding>
        </extension>
        <!-- 0..1 政治面貌， GB 4762-1984-->
        <extension url="http://StructureDefinition.hl7fhir.cn/sexual-distinction-of-human">
          <extension url="orgnaztion">
            <valueCoding>
              <!-- 0..1 政治面貌 CodeSystem url  地址-->
              <system value="http://CodeSystem.hl7fhir.cn/politic-affiliation"/>
              <!-- 0..1 政治面貌代码-->
              <code value="01"/>
              <!-- 0..1 政治面貌说明 -->
              <display value="群众"/>
            </valueCoding>
          </extension>
        </extension>
        <!-- 0..1 参加工作日期-->
        <extension url="http://StructureDefinition.hl7fhir.cn/date-start-work">
          <valueDate value="2014-01-01"/>
        </extension>
        <!-- 0..1 是否多地点执业医师-->
        <extension url="http://StructureDefinition.hl7fhir.cn/is-work-for-multi-org">
          <valueBoolean value="false"/>
        </extension>
      </Practitioner>
    </resource>
  </entry>


</Bundle>


